log(E/eV)	pSyn	eIC	pPP	pPG	totAbs
-2	36.2587	30.8627	-100	-100	36.2587	-100
-1.79798	36.4102	31.2259	-100	-100	36.4102	-100
-1.59596	36.5609	31.5833	-100	-100	36.5609	-100
-1.39394	36.7106	31.9356	-100	-100	36.7106	-100
-1.19192	36.8584	32.2816	-100	-100	36.8584	-100
-0.989899	37.0045	32.6199	-100	-100	37.0045	-100
-0.787879	37.1491	32.9507	-100	-100	37.1491	-100
-0.585859	37.2931	33.2716	-100	-100	37.2932	-100
-0.383838	37.4369	33.5816	-100	-100	37.4369	-100
-0.181818	37.5802	33.8781	-100	-100	37.5803	-100
0.020202	37.723	34.1592	-100	-100	37.7231	-100
0.222222	37.8657	34.4233	-100	-100	37.8658	-100
0.424242	38.0088	34.6713	-100	-100	38.009	-100
0.626263	38.1529	34.8968	-100	-100	38.1531	-100
0.828283	38.2983	35.0983	-100	-100	38.2985	-100
1.0303	38.4451	35.2684	-100	-100	38.4454	-100
1.23232	38.5937	35.3937	-100	-100	38.5939	-100
1.43434	38.7445	35.4896	-100	-100	38.7448	-100
1.63636	38.8981	35.5654	-100	-100	38.8983	-100
1.83838	39.0546	35.6222	-100	-100	39.0548	-100
2.0404	39.2142	35.6983	-100	-100	39.2144	-100
2.24242	39.3766	35.7786	-100	-100	39.3768	-100
2.44444	39.5416	35.8454	-100	-100	39.5417	-100
2.64646	39.7088	35.963	-100	-100	39.7088	-100
2.84848	39.8774	36.0205	-100	-100	39.8775	-100
3.05051	40.0464	36.0571	-100	-100	40.0464	-100
3.25253	40.215	36.1529	-100	-100	40.215	-100
3.45455	40.3826	35.9629	-100	-100	40.3827	-100
3.65657	40.5481	35.7799	-100	-100	40.5481	-100
3.85859	40.7093	35.7772	-100	-100	40.7093	-100
4.06061	40.8657	35.8124	-100	-100	40.8657	28.6964
4.26263	41.0179	35.856	-100	-100	41.0179	30.8719
4.46465	41.1648	35.8994	-100	-100	41.1648	-100
4.66667	41.3032	35.9398	-100	-100	41.3032	33.7688
4.86869	41.4323	35.9743	-100	-100	41.4323	33.8881
5.07071	41.5551	35.9923	-100	-100	41.5551	34.9409
5.27273	41.6716	35.9961	-100	-100	41.6716	35.7663
5.47475	41.776	35.9805	-100	-100	41.776	36.4151
5.67677	41.866	35.9501	-100	-100	41.866	36.9407
5.87879	41.9477	35.9148	-100	-100	41.9477	37.3787
6.08081	42.0246	35.8853	-100	-100	42.0246	37.7497
6.28283	42.0872	35.8669	32.3632	-100	42.0871	38.0629
6.48485	42.1281	35.8533	33.0813	-100	42.128	38.3257
6.68687	42.156	35.8304	33.547	-100	42.1559	38.5577
6.88889	42.1821	35.783	34.0359	-100	42.182	38.7778
7.09091	42.194	35.6913	36.8539	-100	42.1937	38.9782
7.29293	42.1731	35.5261	38.808	-15.0181	42.1729	39.1419
7.49495	42.1262	35.2999	39.6594	-0.634295	42.1271	39.2763
7.69697	42.0784	35.0138	40.2982	9.00191	42.0847	39.41
7.89899	42.0213	34.557	40.7022	16.4791	42.0403	39.5396
8.10101	41.9159	32.8953	41.1063	20.6973	41.9764	39.6529
8.30303	41.7499	28.2276	41.4668	24.0405	41.9289	39.7948
8.50505	41.5642	27.4553	41.5565	26.2949	41.8563	39.9311
8.70707	41.3896	14.3466	41.4382	27.9978	41.707	40.0111
8.90909	41.1658	-17.4226	40.9183	29.2893	41.3455	39.8908
9.11111	40.8285	-49.4439	39.4392	30.3051	40.8201	39.6063
9.31313	40.3506	-49.1507	38.0113	31.1394	40.3096	39.3268
9.51515	39.858	-48.8581	37.798	31.8489	39.7936	39.0237
9.71717	39.3562	-48.5795	38.013	32.4672	39.2756	38.688
9.91919	38.7947	-48.293	38.2217	33.0095	38.7781	38.2789
10.1212	38.0245	-48.0057	38.4225	33.487	38.4918	37.7784
10.3232	36.8323	-47.734	38.6148	33.9164	38.5668	37.6976
10.5253	35.6139	-47.4652	38.7981	34.3072	38.7177	38.0277
10.7273	34.2495	-47.2162	38.9715	34.6664	38.8421	38.3828
10.9293	32.3754	-46.9696	39.1346	35.0068	38.9186	38.7278
11.1313	30.8078	-46.7274	39.2867	35.3312	38.9286	39.0362
11.3333	28.4915	-46.5055	39.4277	35.648	38.8691	39.2874
11.5354	24.7447	-46.3074	39.5576	35.9578	38.7612	39.4821
11.7374	21.5625	-46.1513	39.6768	36.2627	38.6359	39.6356
11.9394	17.7104	-46.0064	39.7862	36.5614	38.514	39.7626
12.1414	11.4545	-45.9231	39.8874	36.8511	38.4043	39.8733
12.3434	5.1968	-45.8409	39.9826	37.1318	38.3073	39.974
12.5455	-1.122	-45.8875	40.0751	37.4039	38.2212	40.0699
12.7475	-11.3061	-46.0926	40.1692	37.6701	38.1428	40.1665
12.9495	-27.646	-46.9643	40.2701	37.9384	38.0388	40.2696
13.1515	-45.0132	-57.4972	40.3836	38.222	37.8299	40.3853
13.3535	-51.0315	-58.0365	40.5141	38.5388	37.5192	40.5182
13.5556	-55.039	-58.0479	40.6626	38.9021	37.185	40.6699
13.7576	-61.5443	-58.4564	40.8248	39.3048	36.9883	40.8376
13.9596	-72.0255	-100	40.9918	39.7212	36.9972	41.0145
14.1616	-88.8385	-100	41.1532	40.1162	37.1126	41.1913
14.3636	-115.74	-100	41.2974	40.4688	37.2975	41.3574
14.5657	-158.707	-100	41.415	40.7695	37.5356	41.5035
14.7677	-227.235	-100	41.4988	41.0145	37.7063	41.6219
14.9697	-100	-100	41.5424	41.2233	37.9425	41.7125
15.1717	-100	-100	41.5406	41.4309	38.15	41.7901
15.3737	-100	-100	41.4885	41.6463	38.349	41.8754
15.5758	-100	-100	41.3798	41.8198	38.5879	41.9541
15.7778	-100	-100	41.2064	41.9022	38.7673	41.9817
15.9798	-100	-100	40.9544	41.8437	38.8141	41.896
16.1818	-100	-100	40.5994	41.6024	38.7386	41.6429
16.3838	-100	-100	40.1018	41.1217	38.4216	41.1605
16.5859	-100	-100	39.3874	40.2605	37.7046	40.3141
16.7879	-100	-100	38.3344	38.7953	36.5043	38.9227
16.9899	-100	-100	36.7184	36.2816	34.6171	36.8512
17.1919	-100	-100	-100	31.8954	29.8239	31.8917
17.3939	-100	-100	-100	24.0458	22.1233	24.0405
17.596	-100	-100	-100	8.03138	6.30574	8.02313
17.798	-100	-100	-100	-28.9986	-30.5381	-29.0113
18	-100	-100	-100	-46.5381	-48.0208	-46.5527
